Folder: ETH_PHD_thesis/data/small/Raman

Note: README.md
[![DOI](https://zenodo.org/badge/207896388.svg)](https://zenodo.org/badge/latestdoi/207896388)
# ETH_PHD_thesis
ETH PhD thesis

File: sio2-f16.txt
-163.473	724
-144.68	725
-125.923	723
-107.203	725
-88.52	725
-69.8734	724
-51.2633	725
-32.6897	723
-14.1524	724
4.34848	774
22.8132	726
41.2417	725
59.6341	726
77.9905	1084
96.311	2213
114.596	1858
132.844	1923
151.058	1669
169.235	1652
187.377	1684
205.484	1917
223.555	1550
241.59	1618
259.591	1623
277.556	1793
295.487	1934
313.382	1881
331.242	1758
349.068	1524
366.859	1465
384.615	1466
402.336	1363
420.023	1389
437.676	1393
455.294	1247
472.878	1535
490.427	1402
507.943	2492
525.425	34406
542.872	2214
560.286	1641
577.666	1593
595.012	2192
612.325	1377
629.604	1310
646.85	1273
664.062	1249
681.241	1248
698.387	1204
715.5	1339
732.579	4319
749.626	2023
766.64	1495
783.621	1257
800.569	1228
817.485	1346
834.368	1245
851.219	1179
868.037	1146
884.823	1171
901.577	1176
918.299	1230
934.988	1789
951.646	2543
968.272	3247
984.866	2372
1001.43	1532
1017.96	1312
1034.46	1185
1050.93	1230
1067.36	1468
1083.77	1125
1100.14	1073
1116.48	1136
1132.8	1272
1149.08	1298
1165.33	1229
1181.55	1378
1197.73	3185
1213.89	1261
1230.02	1176
1246.12	1184
1262.18	1240
1278.22	1356
1294.22	1512
1310.2	3052
1326.15	3194
1342.06	2894
1357.95	2994
1373.8	2387
1389.63	1578
1405.43	1566
1421.19	1473
1436.93	1572
1452.64	2094
1468.32	3115
1483.97	4044
1499.59	1974
1515.18	2512
1530.74	4885
1546.27	3428
1561.78	2248
1577.25	1663
1592.7	1409
1608.12	1551
1623.51	1734
1638.87	1807
1654.2	1355
1669.51	1209
1684.78	1075
1700.03	1082
1715.25	1049
1730.45	1007
1745.61	1013
1760.75	977
1775.86	998
1790.94	989
1805.99	1014
1821.02	970
1836.02	965
1850.99	953
1865.93	953
1880.85	955
1895.74	996
1910.6	1012
1925.43	1028
1940.24	1013
1955.03	984
1969.78	967
1984.51	946
1999.21	952
2013.89	963
2028.53	977
2043.16	993
2057.75	1000
2072.32	1016
2086.86	1042
2101.38	1055
2115.87	1079
2130.34	1008
2144.78	991
2159.19	968
2173.58	962
2187.94	960
2202.28	988
2216.59	1003
2230.87	1020
2245.13	998
2259.37	1036
2273.58	1088
2287.76	1102
2301.92	1083
2316.06	996
2330.17	976
2344.25	945
2358.31	958
2372.34	967
2386.35	991
2400.34	993
2414.3	988
2428.24	992
2442.15	1007
2456.03	1023
2469.9	999
2483.74	1020
2497.55	1014
2511.34	1020
2525.11	972
2538.85	967
2552.57	960
2566.26	977
2579.93	977
2593.58	1007
2607.2	1012
2620.8	1035
2634.38	1079
2647.93	1104
2661.46	1136
2674.97	1084
2688.45	1116
2701.91	1088
2715.34	1088
2728.76	1115
2742.15	1061
2755.52	1048
2768.86	1045
2782.18	1079
2795.48	1095
2808.76	1073
2822.01	1083
2835.24	1109
2848.45	1164
2861.63	1172
2874.8	1167
2887.94	1239
2901.05	1264
2914.15	1226
2927.22	1162
2940.28	1118
2953.3	1097
2966.31	1106
2979.3	1073
2992.26	1056
3005.2	1067
3018.12	1067
3031.02	1082
3043.9	1091
3056.75	1141
3069.59	1183
3082.4	1174
3095.19	1129
3107.96	1063
3120.7	1027
3133.43	986
3146.14	975
3158.82	968
3171.48	957
3184.12	946
3196.74	943
3209.34	939
3221.92	943
3234.48	955
3247.02	944
3259.53	943
3272.03	924
3284.5	931
3296.96	920
3309.39	914
3321.8	936
3334.2	916
3346.57	919
3358.92	937
3371.25	936
3383.56	936
3395.86	929
3408.13	918
3420.38	919
3432.61	937
3444.82	923
3457.01	916
3469.18	927
3481.33	912
3493.46	913
3505.58	916
3517.67	919
3529.74	930
3541.79	928
3553.82	924
3565.84	923
3577.83	926
3589.81	937
3601.76	934
3613.7	941
3625.62	949
3637.51	933
3649.39	935
3661.25	934
3673.09	948
3684.91	944
3696.71	917
3708.5	935
3720.26	927
3732.01	935
3743.73	914
3755.44	926
3767.13	916
3778.8	935
3784.63	920

File: sio2-gr-f16.txt
-163.473	723
-144.68	724
-125.923	724
-107.203	726
-88.52	724
-69.8734	723
-51.2633	722
-32.6897	724
-14.1524	724
4.34848	737
22.8132	725
41.2417	727
59.6341	724
77.9905	788
96.311	980
114.596	909
132.844	1124
151.058	908
169.235	922
187.377	959
205.484	1132
223.555	894
241.59	905
259.591	926
277.556	951
295.487	969
313.382	955
331.242	987
349.068	901
366.859	913
384.615	894
402.336	876
420.023	903
437.676	896
455.294	859
472.878	1018
490.427	897
507.943	1143
525.425	7859
542.872	1014
560.286	1042
577.666	990
595.012	1373
612.325	887
629.604	895
646.85	921
664.062	872
681.241	880
698.387	872
715.5	925
732.579	2787
749.626	1707
766.64	1044
783.621	921
800.569	909
817.485	950
834.368	894
851.219	894
868.037	861
884.823	869
901.577	866
918.299	898
934.988	1043
951.646	1392
968.272	1938
984.866	1175
1001.43	995
1017.96	938
1034.46	926
1050.93	999
1067.36	1253
1083.77	939
1100.14	929
1116.48	951
1132.8	1048
1149.08	1059
1165.33	1036
1181.55	1148
1197.73	2853
1213.89	1069
1230.02	1025
1246.12	1020
1262.18	1071
1278.22	1141
1294.22	1273
1310.2	2578
1326.15	3522
1342.06	3036
1357.95	3431
1373.8	3107
1389.63	1526
1405.43	1360
1421.19	1356
1436.93	1366
1452.64	1725
1468.32	3287
1483.97	4342
1499.59	1942
1515.18	1949
1530.74	6697
1546.27	5256
1561.78	2855
1577.25	1791
1592.7	1595
1608.12	1606
1623.51	1920
1638.87	2013
1654.2	1301
1669.51	1187
1684.78	1016
1700.03	994
1715.25	1013
1730.45	974
1745.61	947
1760.75	923
1775.86	938
1790.94	953
1805.99	962
1821.02	946
1836.02	912
1850.99	923
1865.93	914
1880.85	938
1895.74	955
1910.6	979
1925.43	1028
1940.24	990
1955.03	981
1969.78	944
1984.51	935
1999.21	943
2013.89	938
2028.53	954
2043.16	1010
2057.75	1018
2072.32	1046
2086.86	1080
2101.38	1132
2115.87	1176
2130.34	1097
2144.78	1060
2159.19	1012
2173.58	975
2187.94	989
2202.28	1051
2216.59	1102
2230.87	1121
2245.13	1019
2259.37	1124
2273.58	1275
2287.76	1270
2301.92	1195
2316.06	1111
2330.17	1049
2344.25	1001
2358.31	997
2372.34	1012
2386.35	1023
2400.34	1044
2414.3	1045
2428.24	1068
2442.15	1055
2456.03	1117
2469.9	1109
2483.74	1127
2497.55	1144
2511.34	1138
2525.11	1059
2538.85	1083
2552.57	1074
2566.26	1051
2579.93	1064
2593.58	1105
2607.2	1143
2620.8	1160
2634.38	1263
2647.93	1344
2661.46	1473
2674.97	1563
2688.45	1724
2701.91	1585
2715.34	1368
2728.76	1338
2742.15	1227
2755.52	1186
2768.86	1225
2782.18	1250
2795.48	1272
2808.76	1294
2822.01	1236
2835.24	1310
2848.45	1406
2861.63	1423
2874.8	1438
2887.94	1425
2901.05	1580
2914.15	1506
2927.22	1372
2940.28	1290
2953.3	1299
2966.31	1305
2979.3	1277
2992.26	1241
3005.2	1275
3018.12	1268
3031.02	1255
3043.9	1231
3056.75	1291
3069.59	1434
3082.4	1448
3095.19	1301
3107.96	1188
3120.7	1145
3133.43	1088
3146.14	1068
3158.82	1057
3171.48	1034
3184.12	1042
3196.74	1031
3209.34	1024
3221.92	1016
3234.48	1026
3247.02	1041
3259.53	1041
3272.03	1013
3284.5	1022
3296.96	999
3309.39	990
3321.8	999
3334.2	993
3346.57	985
3358.92	1008
3371.25	1001
3383.56	1007
3395.86	1012
3408.13	1031
3420.38	991
3432.61	1000
3444.82	1016
3457.01	1004
3469.18	1022
3481.33	1008
3493.46	994
3505.58	1007
3517.67	1003
3529.74	986
3541.79	1007
3553.82	1002
3565.84	1012
3577.83	1023
3589.81	1011
3601.76	1015
3613.7	1018
3625.62	1046
3637.51	1044
3649.39	1027
3661.25	1019
3673.09	1025
3684.91	1014
3696.71	1023
3708.5	1017
3720.26	1007
3732.01	1002
3743.73	1011
3755.44	1014
3767.13	1021
3778.8	1022
3784.63	1026